onset	duration	BIDS_Subject	BIDS_Session	Run	SubTrial	Condition	Stimulus.ACC	ResponseCheck	Result	stimrt	Cue.OnsetTime	Cue.Duration	Fix.OnsetTime	Fix.Duration	Probe.Duration	Feedback.OnsetTime	Feedback.Duration
n/a	n/a	sub-54	ses-2	1	1.0	SmallReward	1.0	Correct Response!	You earn $0.20!	n/a	0.03	2.0	2.03	2.0	228.9835376554015	4.306983537655404	1.6877699274198728
n/a	n/a	sub-54	ses-2	1	2.0	LgReward	1.0	Correct Response!	You earn $5!	n/a	6.19	2.0	8.19	2.0	228.9835376554015	10.466983537655404	1.6877699274198728
n/a	n/a	sub-54	ses-2	1	3.0	SmallPun	1.0	Correct Response!	You keep $0.20!	n/a	12.333	2.0	14.333	2.0	228.9835376554015	16.609983537655403	1.6877699274198728
n/a	n/a	sub-54	ses-2	1	4.0	LgPun	1.0	Correct Response!	You keep $5!	n/a	18.526	2.0	20.526	2.0	228.9835376554015	22.802983537655404	1.6877699274198728
n/a	n/a	sub-54	ses-2	1	5.0	Triangle	1.0	No Response Detected	No money at stake!	n/a	24.686	2.0	26.686	2.0	228.9835376554015	28.9629835376554	1.6877699274198728
n/a	n/a	sub-54	ses-2	1	6.0	LgPun	1.0	Correct Response!	You keep $5!	n/a	30.696	2.0	32.696	2.0	228.9835376554015	34.972983537655395	1.6877699274198728
n/a	n/a	sub-54	ses-2	1	7.0	SmallReward	1.0	Correct Response!	You earn $0.20!	n/a	36.873	2.0	38.873	2.0	228.9835376554015	41.1499835376554	1.6877699274198728
n/a	n/a	sub-54	ses-2	1	8.0	SmallPun	0.0	No Response Detected	You lose $0.20!	n/a	42.883	2.0	44.883	2.0	228.9835376554015	47.1599835376554	1.6877699274198728
n/a	n/a	sub-54	ses-2	1	9.0	LgPun	1.0	Correct Response!	You keep $5!	n/a	48.893	2.0	50.893	2.0	228.9835376554015	53.1699835376554	1.6877699274198728
n/a	n/a	sub-54	ses-2	1	10.0	Triangle	1.0	Correct Response!	No money at stake!	n/a	54.903	2.0	56.903	2.0	228.9835376554015	59.1799835376554	1.6877699274198728
n/a	n/a	sub-54	ses-2	1	11.0	LgReward	1.0	Correct Response!	You earn $5!	n/a	60.914	2.0	62.914	2.0	228.9835376554015	65.1909835376554	1.6877699274198728
n/a	n/a	sub-54	ses-2	1	12.0	SmallPun	1.0	Correct Response!	You keep $0.20!	n/a	66.924	2.0	68.924	2.0	228.9835376554015	71.20098353765539	1.6877699274198728
n/a	n/a	sub-54	ses-2	1	13.0	SmallReward	1.0	Correct Response!	You earn $0.20!	n/a	72.934	2.0	74.934	2.0	228.9835376554015	77.2109835376554	1.6877699274198728
n/a	n/a	sub-54	ses-2	1	14.0	Triangle	0.0	No Response Detected	No money at stake!	n/a	78.944	2.0	80.944	2.0	228.9835376554015	83.2209835376554	1.6877699274198728
n/a	n/a	sub-54	ses-2	1	15.0	LgReward	0.0	No Response Detected	You did not earn $5!	n/a	84.954	2.0	86.954	2.0	228.9835376554015	89.23098353765539	1.6877699274198728
n/a	n/a	sub-54	ses-2	1	16.0	LgPun	1.0	Correct Response!	You keep $5!	n/a	90.964	2.0	92.964	2.0	228.9835376554015	95.2409835376554	1.6877699274198728
n/a	n/a	sub-54	ses-2	1	17.0	SmallPun	0.0	No Response Detected	You lose $0.20!	n/a	96.974	2.0	98.974	2.0	228.9835376554015	101.25098353765542	1.6877699274198728
n/a	n/a	sub-54	ses-2	1	18.0	SmallReward	0.0	No Response Detected	You did not earn $0.20!	n/a	102.984	2.0	104.984	2.0	228.9835376554015	107.2609835376554	1.6877699274198728
n/a	n/a	sub-54	ses-2	1	19.0	LgReward	0.0	No Response Detected	You did not earn $5!	n/a	108.994	2.0	110.994	2.0	228.9835376554015	113.2709835376554	1.6877699274198728
n/a	n/a	sub-54	ses-2	1	20.0	SmallReward	1.0	No Response Detected	You did not earn $0.20!	n/a	115.005	2.0	117.005	2.0	228.9835376554015	119.2819835376554	1.6877699274198728
n/a	n/a	sub-54	ses-2	1	21.0	SmallPun	0.0	No Response Detected	You lose $0.20!	n/a	121.015	2.0	123.015	2.0	228.9835376554015	125.2919835376554	1.6877699274198728
n/a	n/a	sub-54	ses-2	1	22.0	LgPun	1.0	Correct Response!	You keep $5!	n/a	127.025	2.0	129.025	2.0	228.9835376554015	131.30198353765542	1.6877699274198728
n/a	n/a	sub-54	ses-2	1	23.0	Triangle	1.0	Correct Response!	No money at stake!	n/a	133.035	2.0	135.035	2.0	228.9835376554015	137.3119835376554	1.6877699274198728
n/a	n/a	sub-54	ses-2	1	24.0	LgPun	1.0	Correct Response!	You keep $5!	n/a	139.045	2.0	141.045	2.0	228.9835376554015	143.3219835376554	1.6877699274198728
n/a	n/a	sub-54	ses-2	1	25.0	SmallReward	1.0	No Response Detected	You did not earn $0.20!	n/a	145.055	2.0	147.055	2.0	228.9835376554015	149.33198353765542	1.6877699274198728
n/a	n/a	sub-54	ses-2	1	26.0	Triangle	1.0	No Response Detected	No money at stake!	n/a	151.065	2.0	153.065	2.0	228.9835376554015	155.3419835376554	1.6877699274198728
n/a	n/a	sub-54	ses-2	1	27.0	LgReward	1.0	Correct Response!	You earn $5!	n/a	157.075	2.0	159.075	2.0	228.9835376554015	161.3519835376554	1.6877699274198728
n/a	n/a	sub-54	ses-2	1	28.0	LgPun	0.0	No Response Detected	You lose $5!	n/a	163.086	2.0	165.086	2.0	228.9835376554015	167.36298353765542	1.6877699274198728
n/a	n/a	sub-54	ses-2	1	29.0	Triangle	1.0	No Response Detected	No money at stake!	n/a	169.096	2.0	171.096	2.0	228.9835376554015	173.3729835376554	1.6877699274198728
n/a	n/a	sub-54	ses-2	1	30.0	LgReward	1.0	Correct Response!	You earn $5!	n/a	175.106	2.0	177.106	2.0	228.9835376554015	179.3829835376554	1.6877699274198728
n/a	n/a	sub-54	ses-2	1	31.0	SmallReward	1.0	Correct Response!	You earn $0.20!	n/a	181.116	2.0	183.116	2.0	228.9835376554015	185.39298353765545	1.6877699274198728
n/a	n/a	sub-54	ses-2	1	32.0	SmallPun	1.0	Correct Response!	You keep $0.20!	n/a	187.126	2.0	189.126	2.0	228.9835376554015	191.40298353765544	1.6877699274198728
n/a	n/a	sub-54	ses-2	1	33.0	LgPun	0.0	No Response Detected	You lose $5!	n/a	193.136	2.0	195.136	2.0	228.9835376554015	197.4129835376554	1.6877699274198728
n/a	n/a	sub-54	ses-2	1	34.0	Triangle	1.0	Correct Response!	No money at stake!	n/a	199.146	2.0	201.146	2.0	228.9835376554015	203.4229835376554	1.6877699274198728
n/a	n/a	sub-54	ses-2	1	35.0	SmallReward	1.0	No Response Detected	You did not earn $0.20!	n/a	205.156	2.0	207.156	2.0	228.9835376554015	209.43298353765545	1.6877699274198728
n/a	n/a	sub-54	ses-2	1	36.0	LgReward	0.0	No Response Detected	You did not earn $5!	n/a	211.167	2.0	213.167	2.0	228.9835376554015	215.4439835376554	1.6877699274198728
n/a	n/a	sub-54	ses-2	1	37.0	SmallPun	1.0	Correct Response!	You keep $0.20!	n/a	217.177	2.0	219.177	2.0	228.9835376554015	221.4539835376554	1.6877699274198728
n/a	n/a	sub-54	ses-2	1	38.0	Triangle	1.0	No Response Detected	No money at stake!	n/a	223.187	2.0	225.187	2.0	228.9835376554015	227.4639835376554	1.6877699274198728
n/a	n/a	sub-54	ses-2	1	39.0	SmallReward	1.0	Correct Response!	You earn $0.20!	n/a	229.197	2.0	231.197	2.0	228.9835376554015	233.47398353765536	1.6877699274198728
n/a	n/a	sub-54	ses-2	1	40.0	LgReward	1.0	Correct Response!	You earn $5!	n/a	235.207	2.0	237.207	2.0	228.9835376554015	239.48398353765535	1.6877699274198728
n/a	n/a	sub-54	ses-2	1	41.0	LgPun	1.0	Correct Response!	You keep $5!	n/a	241.217	2.0	243.217	2.0	228.9835376554015	245.4939835376554	1.6877699274198728
n/a	n/a	sub-54	ses-2	1	42.0	SmallPun	1.0	Correct Response!	You keep $0.20!	n/a	247.227	2.0	249.227	2.0	228.9835376554015	251.5039835376554	1.6877699274198728
n/a	n/a	sub-54	ses-2	1	43.0	LgReward	1.0	Correct Response!	You earn $5!	n/a	253.237	2.0	255.237	2.0	228.9835376554015	257.5139835376554	1.6877699274198728
n/a	n/a	sub-54	ses-2	1	44.0	Triangle	1.0	Correct Response!	No money at stake!	n/a	259.248	2.0	261.248	2.0	228.9835376554015	263.5249835376554	1.6877699274198728
n/a	n/a	sub-54	ses-2	1	45.0	SmallReward	1.0	Correct Response!	You earn $0.20!	n/a	265.258	2.0	267.258	2.0	228.9835376554015	269.53498353765536	1.6877699274198728
n/a	n/a	sub-54	ses-2	1	46.0	SmallPun	0.0	No Response Detected	You lose $0.20!	n/a	271.268	2.0	273.268	2.0	228.9835376554015	275.54498353765536	1.6877699274198728
n/a	n/a	sub-54	ses-2	1	47.0	LgReward	1.0	Correct Response!	You earn $5!	n/a	277.278	2.0	279.278	2.0	228.9835376554015	281.5549835376554	1.6877699274198728
n/a	n/a	sub-54	ses-2	1	48.0	Triangle	0.0	No Response Detected	No money at stake!	n/a	283.288	2.0	285.288	2.0	228.9835376554015	287.5649835376554	1.6877699274198728
n/a	n/a	sub-54	ses-2	1	49.0	LgPun	1.0	Correct Response!	You keep $5!	n/a	289.298	2.0	291.298	2.0	228.9835376554015	293.5749835376554	1.6877699274198728
