onset	duration	BIDS_Subject	BIDS_Session	Run	SubTrial	Condition	Stimulus.ACC	ResponseCheck	Result	stimrt	Cue.OnsetTime	Cue.Duration	Fix.OnsetTime	Fix.Duration	Probe.Duration	Feedback.OnsetTime	Feedback.Duration
n/a	n/a	sub-128	ses-2	1	1.0	SmallReward	0.0	No Response Detected	You did not earn $0.20!	n/a	0.03	2.0	2.03	2.0	240.0	4.318	1.71
n/a	n/a	sub-128	ses-2	1	2.0	LgReward	1.0	Correct Response!	You earn $5!	n/a	6.044	2.0	8.044	2.0	240.0	10.332	1.71
n/a	n/a	sub-128	ses-2	1	3.0	SmallPun	0.0	No Response Detected	You lose $0.20!	n/a	12.043	2.0	14.043	2.0	240.0	16.331	1.71
n/a	n/a	sub-128	ses-2	1	4.0	LgPun	1.0	Correct Response!	You keep $5!	n/a	18.057	2.0	20.057	2.0	240.0	22.345	1.71
n/a	n/a	sub-128	ses-2	1	5.0	Triangle	1.0	Correct Response!	No money at stake!	n/a	24.071	2.0	26.071	2.0	240.0	28.359	1.71
n/a	n/a	sub-128	ses-2	1	6.0	LgPun	0.0	No Response Detected	You lose $5!	n/a	30.07	2.0	32.07	2.0	240.0	34.358	1.71
n/a	n/a	sub-128	ses-2	1	7.0	SmallReward	1.0	Correct Response!	You earn $0.20!	n/a	36.084	2.0	38.084	2.0	240.0	40.372	1.71
n/a	n/a	sub-128	ses-2	1	8.0	SmallPun	1.0	Correct Response!	You keep $0.20!	n/a	42.083	2.0	44.083	2.0	240.0	46.371	1.71
n/a	n/a	sub-128	ses-2	1	9.0	LgPun	0.0	No Response Detected	You lose $5!	n/a	48.096	2.0	50.096	2.0	240.0	52.384	1.71
n/a	n/a	sub-128	ses-2	1	10.0	Triangle	1.0	Correct Response!	No money at stake!	n/a	54.095	2.0	56.095	2.0	240.0	58.383	1.71
n/a	n/a	sub-128	ses-2	1	11.0	LgReward	0.0	No Response Detected	You did not earn $5!	n/a	60.109	2.0	62.109	2.0	240.0	64.397	1.71
n/a	n/a	sub-128	ses-2	1	12.0	SmallPun	0.0	No Response Detected	You lose $0.20!	n/a	66.108	2.0	68.108	2.0	240.0	70.396	1.71
n/a	n/a	sub-128	ses-2	1	13.0	SmallReward	0.0	No Response Detected	You did not earn $0.20!	n/a	72.121	2.0	74.121	2.0	240.0	76.409	1.71
n/a	n/a	sub-128	ses-2	1	14.0	Triangle	0.0	No Response Detected	No money at stake!	n/a	78.12	2.0	80.12	2.0	240.0	82.408	1.71
n/a	n/a	sub-128	ses-2	1	15.0	LgReward	1.0	Correct Response!	You earn $5!	n/a	84.134	2.0	86.134	2.0	240.0	88.422	1.71
n/a	n/a	sub-128	ses-2	1	16.0	LgPun	1.0	Correct Response!	You keep $5!	n/a	90.148	2.0	92.148	2.0	240.0	94.436	1.71
n/a	n/a	sub-128	ses-2	1	17.0	SmallPun	1.0	Correct Response!	You keep $0.20!	n/a	96.147	2.0	98.147	2.0	240.0	100.435	1.71
n/a	n/a	sub-128	ses-2	1	18.0	SmallReward	1.0	Correct Response!	You earn $0.20!	n/a	102.161	2.0	104.161	2.0	240.0	106.449	1.71
n/a	n/a	sub-128	ses-2	1	19.0	LgReward	1.0	Correct Response!	You earn $5!	n/a	108.16	2.0	110.16	2.0	240.0	112.448	1.71
n/a	n/a	sub-128	ses-2	1	20.0	SmallReward	1.0	Correct Response!	You earn $0.20!	n/a	114.173	2.0	116.173	2.0	240.0	118.461	1.71
n/a	n/a	sub-128	ses-2	1	21.0	SmallPun	0.0	No Response Detected	You lose $0.20!	n/a	120.172	2.0	122.172	2.0	240.0	124.46	1.71
n/a	n/a	sub-128	ses-2	1	22.0	LgPun	1.0	Correct Response!	You keep $5!	n/a	126.186	2.0	128.186	2.0	240.0	130.474	1.71
n/a	n/a	sub-128	ses-2	1	23.0	Triangle	1.0	Correct Response!	No money at stake!	n/a	132.2	2.0	134.2	2.0	240.0	136.488	1.71
n/a	n/a	sub-128	ses-2	1	24.0	LgPun	1.0	Correct Response!	You keep $5!	n/a	138.199	2.0	140.199	2.0	240.0	142.487	1.71
n/a	n/a	sub-128	ses-2	1	25.0	SmallReward	1.0	Correct Response!	You earn $0.20!	n/a	144.213	2.0	146.213	2.0	240.0	148.501	1.71
n/a	n/a	sub-128	ses-2	1	26.0	Triangle	0.0	No Response Detected	No money at stake!	n/a	150.212	2.0	152.212	2.0	240.0	154.5	1.71
n/a	n/a	sub-128	ses-2	1	27.0	LgReward	1.0	Correct Response!	You earn $5!	n/a	156.225	2.0	158.225	2.0	240.0	160.513	1.71
n/a	n/a	sub-128	ses-2	1	28.0	LgPun	0.0	No Response Detected	You lose $5!	n/a	162.224	2.0	164.224	2.0	240.0	166.512	1.71
n/a	n/a	sub-128	ses-2	1	29.0	Triangle	0.0	No Response Detected	No money at stake!	n/a	168.238	2.0	170.238	2.0	240.0	172.526	1.71
n/a	n/a	sub-128	ses-2	1	30.0	LgReward	1.0	Correct Response!	You earn $5!	n/a	174.237	2.0	176.237	2.0	240.0	178.525	1.71
n/a	n/a	sub-128	ses-2	1	31.0	SmallReward	1.0	Correct Response!	You earn $0.20!	n/a	180.25	2.0	182.25	2.0	240.0	184.538	1.71
n/a	n/a	sub-128	ses-2	1	32.0	SmallPun	1.0	Correct Response!	You keep $0.20!	n/a	186.249	2.0	188.249	2.0	240.0	190.537	1.71
n/a	n/a	sub-128	ses-2	1	33.0	LgPun	1.0	Correct Response!	You keep $5!	n/a	192.263	2.0	194.263	2.0	240.0	196.551	1.71
n/a	n/a	sub-128	ses-2	1	34.0	Triangle	0.0	No Response Detected	No money at stake!	n/a	198.277	2.0	200.277	2.0	240.0	202.565	1.71
n/a	n/a	sub-128	ses-2	1	35.0	SmallReward	1.0	Correct Response!	You earn $0.20!	n/a	204.276	2.0	206.276	2.0	240.0	208.564	1.71
n/a	n/a	sub-128	ses-2	1	36.0	LgReward	1.0	Correct Response!	You earn $5!	n/a	210.29	2.0	212.29	2.0	240.0	214.578	1.71
n/a	n/a	sub-128	ses-2	1	37.0	SmallPun	1.0	Correct Response!	You keep $0.20!	n/a	216.289	2.0	218.289	2.0	240.0	220.577	1.71
n/a	n/a	sub-128	ses-2	1	38.0	Triangle	0.0	No Response Detected	No money at stake!	n/a	222.302	2.0	224.302	2.0	240.0	226.59	1.71
n/a	n/a	sub-128	ses-2	1	39.0	SmallReward	0.0	No Response Detected	You did not earn $0.20!	n/a	228.301	2.0	230.301	2.0	240.0	232.589	1.71
n/a	n/a	sub-128	ses-2	1	40.0	LgReward	1.0	Correct Response!	You earn $5!	n/a	234.315	2.0	236.315	2.0	240.0	238.603	1.71
n/a	n/a	sub-128	ses-2	1	41.0	LgPun	1.0	Correct Response!	You keep $5!	n/a	240.329	2.0	242.329	2.0	240.0	244.617	1.71
n/a	n/a	sub-128	ses-2	1	42.0	SmallPun	1.0	Correct Response!	You keep $0.20!	n/a	246.328	2.0	248.328	2.0	240.0	250.616	1.71
n/a	n/a	sub-128	ses-2	1	43.0	LgReward	1.0	Correct Response!	You earn $5!	n/a	252.342	2.0	254.342	2.0	240.0	256.63	1.71
n/a	n/a	sub-128	ses-2	1	44.0	Triangle	0.0	No Response Detected	No money at stake!	n/a	258.341	2.0	260.341	2.0	240.0	262.629	1.71
n/a	n/a	sub-128	ses-2	1	45.0	SmallReward	0.0	No Response Detected	You did not earn $0.20!	n/a	264.354	2.0	266.354	2.0	240.0	268.642	1.71
n/a	n/a	sub-128	ses-2	1	46.0	SmallPun	1.0	Correct Response!	You keep $0.20!	n/a	270.353	2.0	272.353	2.0	240.0	274.641	1.71
n/a	n/a	sub-128	ses-2	1	47.0	LgReward	0.0	No Response Detected	You did not earn $5!	n/a	276.367	2.0	278.367	2.0	240.0	280.655	1.71
n/a	n/a	sub-128	ses-2	1	48.0	Triangle	0.0	No Response Detected	No money at stake!	n/a	282.366	2.0	284.366	2.0	240.0	286.654	1.71
n/a	n/a	sub-128	ses-2	1	49.0	LgPun	1.0	Correct Response!	You keep $5!	n/a	288.379	2.0	290.379	2.0	240.0	292.667	1.71
n/a	n/a	sub-128	ses-2	1	50.0	SmallPun	0.0	No Response Detected	You lose $0.20!	n/a	294.378	2.0	296.378	2.0	240.0	298.666	1.71
