onset	duration	BIDS_Subject	BIDS_Session	Run	SubTrial	Condition	Stimulus.ACC	ResponseCheck	Result	stimrt	Cue.OnsetTime	Cue.Duration	Fix.OnsetTime	Fix.Duration	Probe.Duration	Feedback.OnsetTime	Feedback.Duration
n/a	n/a	sub-81	ses-2	1	1.0	SmallReward	1.0	Correct Response!	You earn $0.20!	n/a	0.03	2.0	2.03	2.0	255.0	4.333	1.695
n/a	n/a	sub-81	ses-2	1	2.0	LgReward	1.0	Correct Response!	You earn $5!	n/a	6.041	2.0	8.041	2.0	255.0	10.344	1.695
n/a	n/a	sub-81	ses-2	1	3.0	SmallPun	1.0	Correct Response!	You keep $0.20!	n/a	12.052	2.0	14.052	2.0	255.0	16.355	1.695
n/a	n/a	sub-81	ses-2	1	4.0	LgPun	1.0	Correct Response!	You keep $5!	n/a	18.063	2.0	20.063	2.0	255.0	22.366	1.695
n/a	n/a	sub-81	ses-2	1	5.0	Triangle	1.0	Correct Response!	No money at stake!	n/a	24.073	2.0	26.073	2.0	255.0	28.376	1.695
n/a	n/a	sub-81	ses-2	1	6.0	LgPun	0.0	No Response Detected	You lose $5!	n/a	30.084	2.0	32.084	2.0	255.0	34.387	1.695
n/a	n/a	sub-81	ses-2	1	7.0	SmallReward	0.0	No Response Detected	You did not earn $0.20!	n/a	36.095	2.0	38.095	2.0	255.0	40.398	1.695
n/a	n/a	sub-81	ses-2	1	8.0	SmallPun	1.0	Correct Response!	You keep $0.20!	n/a	42.105	2.0	44.105	2.0	255.0	46.408	1.695
n/a	n/a	sub-81	ses-2	1	9.0	LgPun	1.0	Correct Response!	You keep $5!	n/a	48.116	2.0	50.116	2.0	255.0	52.419	1.695
n/a	n/a	sub-81	ses-2	1	10.0	Triangle	0.0	No Response Detected	No money at stake!	n/a	54.127	2.0	56.127	2.0	255.0	58.43	1.695
n/a	n/a	sub-81	ses-2	1	11.0	LgReward	1.0	Correct Response!	You earn $5!	n/a	60.137	2.0	62.137	2.0	255.0	64.44	1.695
n/a	n/a	sub-81	ses-2	1	12.0	SmallPun	1.0	Correct Response!	You keep $0.20!	n/a	66.148	2.0	68.148	2.0	255.0	70.451	1.695
n/a	n/a	sub-81	ses-2	1	13.0	SmallReward	1.0	Correct Response!	You earn $0.20!	n/a	72.159	2.0	74.159	2.0	255.0	76.462	1.695
n/a	n/a	sub-81	ses-2	1	14.0	Triangle	1.0	Correct Response!	No money at stake!	n/a	78.17	2.0	80.17	2.0	255.0	82.473	1.695
n/a	n/a	sub-81	ses-2	1	15.0	LgReward	1.0	Correct Response!	You earn $5!	n/a	84.18	2.0	86.18	2.0	255.0	88.483	1.695
n/a	n/a	sub-81	ses-2	1	16.0	LgPun	1.0	Correct Response!	You keep $5!	n/a	90.191	2.0	92.191	2.0	255.0	94.494	1.695
n/a	n/a	sub-81	ses-2	1	17.0	SmallPun	1.0	Correct Response!	You keep $0.20!	n/a	96.202	2.0	98.202	2.0	255.0	100.505	1.695
n/a	n/a	sub-81	ses-2	1	18.0	SmallReward	1.0	Correct Response!	You earn $0.20!	n/a	102.212	2.0	104.212	2.0	255.0	106.515	1.695
n/a	n/a	sub-81	ses-2	1	19.0	LgReward	0.0	No Response Detected	You did not earn $5!	n/a	108.223	2.0	110.223	2.0	255.0	112.526	1.695
n/a	n/a	sub-81	ses-2	1	20.0	SmallReward	0.0	No Response Detected	You did not earn $0.20!	n/a	114.234	2.0	116.234	2.0	255.0	118.537	1.695
n/a	n/a	sub-81	ses-2	1	21.0	SmallPun	0.0	No Response Detected	You lose $0.20!	n/a	120.244	2.0	122.244	2.0	255.0	124.547	1.695
n/a	n/a	sub-81	ses-2	1	22.0	LgPun	1.0	Correct Response!	You keep $5!	n/a	126.255	2.0	128.255	2.0	255.0	130.558	1.695
n/a	n/a	sub-81	ses-2	1	23.0	Triangle	1.0	Correct Response!	No money at stake!	n/a	132.266	2.0	134.266	2.0	255.0	136.569	1.695
n/a	n/a	sub-81	ses-2	1	24.0	LgPun	1.0	Correct Response!	You keep $5!	n/a	138.277	2.0	140.277	2.0	255.0	142.58	1.695
n/a	n/a	sub-81	ses-2	1	25.0	SmallReward	1.0	Correct Response!	You earn $0.20!	n/a	144.287	2.0	146.287	2.0	255.0	148.59	1.695
n/a	n/a	sub-81	ses-2	1	26.0	Triangle	1.0	Correct Response!	No money at stake!	n/a	150.298	2.0	152.298	2.0	255.0	154.601	1.695
n/a	n/a	sub-81	ses-2	1	27.0	LgReward	1.0	Correct Response!	You earn $5!	n/a	156.309	2.0	158.309	2.0	255.0	160.612	1.695
n/a	n/a	sub-81	ses-2	1	28.0	LgPun	1.0	Correct Response!	You keep $5!	n/a	162.319	2.0	164.319	2.0	255.0	166.622	1.695
n/a	n/a	sub-81	ses-2	1	29.0	Triangle	1.0	Correct Response!	No money at stake!	n/a	168.33	2.0	170.33	2.0	255.0	172.633	1.695
n/a	n/a	sub-81	ses-2	1	30.0	LgReward	1.0	Correct Response!	You earn $5!	n/a	174.341	2.0	176.341	2.0	255.0	178.644	1.695
n/a	n/a	sub-81	ses-2	1	31.0	SmallReward	1.0	Correct Response!	You earn $0.20!	n/a	180.351	2.0	182.351	2.0	255.0	184.654	1.695
n/a	n/a	sub-81	ses-2	1	32.0	SmallPun	1.0	Correct Response!	You keep $0.20!	n/a	186.362	2.0	188.362	2.0	255.0	190.665	1.695
n/a	n/a	sub-81	ses-2	1	33.0	LgPun	0.0	No Response Detected	You lose $5!	n/a	192.373	2.0	194.373	2.0	255.0	196.676	1.695
n/a	n/a	sub-81	ses-2	1	34.0	Triangle	1.0	Correct Response!	No money at stake!	n/a	198.384	2.0	200.384	2.0	255.0	202.687	1.695
n/a	n/a	sub-81	ses-2	1	35.0	SmallReward	0.0	No Response Detected	You did not earn $0.20!	n/a	204.394	2.0	206.394	2.0	255.0	208.697	1.695
n/a	n/a	sub-81	ses-2	1	36.0	LgReward	1.0	Correct Response!	You earn $5!	n/a	210.405	2.0	212.405	2.0	255.0	214.708	1.695
n/a	n/a	sub-81	ses-2	1	37.0	SmallPun	1.0	Correct Response!	You keep $0.20!	n/a	216.416	2.0	218.416	2.0	255.0	220.719	1.695
n/a	n/a	sub-81	ses-2	1	38.0	Triangle	1.0	Correct Response!	No money at stake!	n/a	222.426	2.0	224.426	2.0	255.0	226.729	1.695
n/a	n/a	sub-81	ses-2	1	39.0	SmallReward	1.0	Correct Response!	You earn $0.20!	n/a	228.437	2.0	230.437	2.0	255.0	232.74	1.695
n/a	n/a	sub-81	ses-2	1	40.0	LgReward	0.0	No Response Detected	You did not earn $5!	n/a	234.448	2.0	236.448	2.0	255.0	238.751	1.695
n/a	n/a	sub-81	ses-2	1	41.0	LgPun	1.0	Correct Response!	You keep $5!	n/a	240.459	2.0	242.459	2.0	255.0	244.762	1.695
n/a	n/a	sub-81	ses-2	1	42.0	SmallPun	1.0	Correct Response!	You keep $0.20!	n/a	246.469	2.0	248.469	2.0	255.0	250.772	1.695
n/a	n/a	sub-81	ses-2	1	43.0	LgReward	1.0	Correct Response!	You earn $5!	n/a	252.48	2.0	254.48	2.0	255.0	256.783	1.695
n/a	n/a	sub-81	ses-2	1	44.0	Triangle	0.0	No Response Detected	No money at stake!	n/a	258.491	2.0	260.491	2.0	255.0	262.794	1.695
n/a	n/a	sub-81	ses-2	1	45.0	SmallReward	1.0	Correct Response!	You earn $0.20!	n/a	264.501	2.0	266.501	2.0	255.0	268.804	1.695
n/a	n/a	sub-81	ses-2	1	46.0	SmallPun	n/a	Correct Response!	You keep $0.20!	n/a	270.512	2.0	272.512	2.0	228.9835376554015	274.7889835376554	1.6877699274198728
