onset	duration	BIDS_Subject	BIDS_Session	Run	SubTrial	Condition	Stimulus.ACC	ResponseCheck	Result	stimrt	Cue.OnsetTime	Cue.Duration	Fix.OnsetTime	Fix.Duration	Probe.Duration	Feedback.OnsetTime	Feedback.Duration
n/a	n/a	sub-15	ses-1	1	1.0	SmallReward	1.0	No Response Detected	You did not earn $0.20!	n/a	0.03	2.0	2.03	2.0	228.9835376554015	4.306983537655404	1.6877699274198728
n/a	n/a	sub-15	ses-1	1	2.0	LgReward	1.0	Correct Response!	You earn $5!	n/a	6.04	2.0	8.04	2.0	228.9835376554015	10.316983537655403	1.6877699274198728
n/a	n/a	sub-15	ses-1	1	3.0	SmallPun	1.0	Correct Response!	You keep $0.20!	n/a	12.2	2.0	14.2	2.0	228.9835376554015	16.476983537655403	1.6877699274198728
n/a	n/a	sub-15	ses-1	1	4.0	LgPun	0.0	No Response Detected	You lose $5!	n/a	18.211	2.0	20.211	2.0	228.9835376554015	22.487983537655403	1.6877699274198728
n/a	n/a	sub-15	ses-1	1	5.0	Triangle	1.0	No Response Detected	No money at stake!	n/a	24.37	2.0	26.37	2.0	228.9835376554015	28.6469835376554	1.6877699274198728
n/a	n/a	sub-15	ses-1	1	6.0	LgPun	1.0	Correct Response!	You keep $5!	n/a	30.381	2.0	32.381	2.0	228.9835376554015	34.6579835376554	1.6877699274198728
n/a	n/a	sub-15	ses-1	1	7.0	SmallReward	1.0	Correct Response!	You earn $0.20!	n/a	36.391	2.0	38.391	2.0	228.9835376554015	40.6679835376554	1.6877699274198728
n/a	n/a	sub-15	ses-1	1	8.0	SmallPun	1.0	Correct Response!	You keep $0.20!	n/a	42.401	2.0	44.401	2.0	228.9835376554015	46.67798353765539	1.6877699274198728
n/a	n/a	sub-15	ses-1	1	9.0	LgPun	1.0	No Response Detected	You lose $5!	n/a	48.411	2.0	50.411	2.0	228.9835376554015	52.6879835376554	1.6877699274198728
n/a	n/a	sub-15	ses-1	1	10.0	Triangle	1.0	Correct Response!	No money at stake!	n/a	54.421	2.0	56.421	2.0	228.9835376554015	58.6979835376554	1.6877699274198728
n/a	n/a	sub-15	ses-1	1	11.0	LgReward	1.0	Correct Response!	You earn $5!	n/a	60.443	2.0	62.443	2.0	228.9835376554015	64.7199835376554	1.6877699274198728
n/a	n/a	sub-15	ses-1	1	12.0	SmallPun	1.0	Correct Response!	You keep $0.20!	n/a	66.453	2.0	68.453	2.0	228.9835376554015	70.7299835376554	1.6877699274198728
n/a	n/a	sub-15	ses-1	1	13.0	SmallReward	1.0	Correct Response!	You earn $0.20!	n/a	72.463	2.0	74.463	2.0	228.9835376554015	76.73998353765539	1.6877699274198728
n/a	n/a	sub-15	ses-1	1	14.0	Triangle	1.0	Correct Response!	No money at stake!	n/a	78.473	2.0	80.473	2.0	228.9835376554015	82.7499835376554	1.6877699274198728
n/a	n/a	sub-15	ses-1	1	15.0	LgReward	1.0	No Response Detected	You did not earn $5!	n/a	84.483	2.0	86.483	2.0	228.9835376554015	88.7599835376554	1.6877699274198728
n/a	n/a	sub-15	ses-1	1	16.0	LgPun	1.0	Correct Response!	You keep $5!	n/a	90.493	2.0	92.493	2.0	228.9835376554015	94.7699835376554	1.6877699274198728
n/a	n/a	sub-15	ses-1	1	17.0	SmallPun	1.0	Correct Response!	You keep $0.20!	n/a	96.504	2.0	98.504	2.0	228.9835376554015	100.78098353765542	1.6877699274198728
n/a	n/a	sub-15	ses-1	1	18.0	SmallReward	1.0	No Response Detected	You did not earn $0.20!	n/a	102.514	2.0	104.514	2.0	228.9835376554015	106.7909835376554	1.6877699274198728
n/a	n/a	sub-15	ses-1	1	19.0	LgReward	1.0	Correct Response!	You earn $5!	n/a	108.524	2.0	110.524	2.0	228.9835376554015	112.8009835376554	1.6877699274198728
n/a	n/a	sub-15	ses-1	1	20.0	SmallReward	0.0	No Response Detected	You did not earn $0.20!	n/a	114.534	2.0	116.534	2.0	228.9835376554015	118.81098353765542	1.6877699274198728
n/a	n/a	sub-15	ses-1	1	21.0	SmallPun	1.0	Correct Response!	You keep $0.20!	n/a	120.544	2.0	122.544	2.0	228.9835376554015	124.8209835376554	1.6877699274198728
n/a	n/a	sub-15	ses-1	1	22.0	LgPun	1.0	Correct Response!	You keep $5!	n/a	126.554	2.0	128.554	2.0	228.9835376554015	130.8309835376554	1.6877699274198728
n/a	n/a	sub-15	ses-1	1	23.0	Triangle	1.0	Correct Response!	No money at stake!	n/a	132.564	2.0	134.564	2.0	228.9835376554015	136.8409835376554	1.6877699274198728
n/a	n/a	sub-15	ses-1	1	24.0	LgPun	1.0	Correct Response!	You keep $5!	n/a	138.574	2.0	140.574	2.0	228.9835376554015	142.85098353765542	1.6877699274198728
n/a	n/a	sub-15	ses-1	1	25.0	SmallReward	1.0	Correct Response!	You earn $0.20!	n/a	144.585	2.0	146.585	2.0	228.9835376554015	148.86198353765542	1.6877699274198728
n/a	n/a	sub-15	ses-1	1	26.0	Triangle	0.0	No Response Detected	No money at stake!	n/a	150.595	2.0	152.595	2.0	228.9835376554015	154.8719835376554	1.6877699274198728
n/a	n/a	sub-15	ses-1	1	27.0	LgReward	1.0	No Response Detected	You did not earn $5!	n/a	156.605	2.0	158.605	2.0	228.9835376554015	160.8819835376554	1.6877699274198728
n/a	n/a	sub-15	ses-1	1	28.0	LgPun	1.0	No Response Detected	You lose $5!	n/a	162.615	2.0	164.615	2.0	228.9835376554015	166.89198353765542	1.6877699274198728
n/a	n/a	sub-15	ses-1	1	29.0	Triangle	1.0	Correct Response!	No money at stake!	n/a	168.625	2.0	170.625	2.0	228.9835376554015	172.9019835376554	1.6877699274198728
n/a	n/a	sub-15	ses-1	1	30.0	LgReward	1.0	Correct Response!	You earn $5!	n/a	174.635	2.0	176.635	2.0	228.9835376554015	178.9119835376554	1.6877699274198728
n/a	n/a	sub-15	ses-1	1	31.0	SmallReward	0.0	No Response Detected	You did not earn $0.20!	n/a	180.64	2.0	182.64	2.0	228.9835376554015	184.9169835376554	1.6877699274198728
n/a	n/a	sub-15	ses-1	1	32.0	SmallPun	1.0	Correct Response!	You keep $0.20!	n/a	186.65	2.0	188.65	2.0	228.9835376554015	190.92698353765545	1.6877699274198728
n/a	n/a	sub-15	ses-1	1	33.0	LgPun	0.0	No Response Detected	You lose $5!	n/a	192.661	2.0	194.661	2.0	228.9835376554015	196.9379835376554	1.6877699274198728
n/a	n/a	sub-15	ses-1	1	34.0	Triangle	1.0	Correct Response!	No money at stake!	n/a	198.671	2.0	200.671	2.0	228.9835376554015	202.9479835376554	1.6877699274198728
n/a	n/a	sub-15	ses-1	1	35.0	SmallReward	0.0	No Response Detected	You did not earn $0.20!	n/a	204.681	2.0	206.681	2.0	228.9835376554015	208.95798353765545	1.6877699274198728
n/a	n/a	sub-15	ses-1	1	36.0	LgReward	1.0	Correct Response!	You earn $5!	n/a	210.691	2.0	212.691	2.0	228.9835376554015	214.9679835376554	1.6877699274198728
n/a	n/a	sub-15	ses-1	1	37.0	SmallPun	1.0	No Response Detected	You keep $0.20!	n/a	216.701	2.0	218.701	2.0	228.9835376554015	220.9779835376554	1.6877699274198728
n/a	n/a	sub-15	ses-1	1	38.0	Triangle	1.0	No Response Detected	No money at stake!	n/a	222.711	2.0	224.711	2.0	228.9835376554015	226.9879835376554	1.6877699274198728
n/a	n/a	sub-15	ses-1	1	39.0	SmallReward	1.0	No Response Detected	You did not earn $0.20!	n/a	228.721	2.0	230.721	2.0	228.9835376554015	232.9979835376554	1.6877699274198728
n/a	n/a	sub-15	ses-1	1	40.0	LgReward	1.0	No Response Detected	You did not earn $5!	n/a	234.731	2.0	236.731	2.0	228.9835376554015	239.00798353765535	1.6877699274198728
n/a	n/a	sub-15	ses-1	1	41.0	LgPun	0.0	No Response Detected	You lose $5!	n/a	240.741	2.0	242.741	2.0	228.9835376554015	245.01798353765537	1.6877699274198728
n/a	n/a	sub-15	ses-1	1	42.0	SmallPun	1.0	Correct Response!	You keep $0.20!	n/a	246.752	2.0	248.752	2.0	228.9835376554015	251.0289835376554	1.6877699274198728
n/a	n/a	sub-15	ses-1	1	43.0	LgReward	1.0	No Response Detected	You did not earn $5!	n/a	252.762	2.0	254.762	2.0	228.9835376554015	257.0389835376554	1.6877699274198728
n/a	n/a	sub-15	ses-1	1	44.0	Triangle	1.0	No Response Detected	No money at stake!	n/a	258.772	2.0	260.772	2.0	228.9835376554015	263.0489835376554	1.6877699274198728
n/a	n/a	sub-15	ses-1	1	45.0	SmallReward	0.0	No Response Detected	You did not earn $0.20!	n/a	264.782	2.0	266.782	2.0	228.9835376554015	269.05898353765537	1.6877699274198728
n/a	n/a	sub-15	ses-1	1	46.0	SmallPun	1.0	Correct Response!	You keep $0.20!	n/a	270.792	2.0	272.792	2.0	228.9835376554015	275.06898353765536	1.6877699274198728
n/a	n/a	sub-15	ses-1	1	47.0	LgReward	1.0	Correct Response!	You earn $5!	n/a	276.802	2.0	278.802	2.0	228.9835376554015	281.0789835376554	1.6877699274198728
n/a	n/a	sub-15	ses-1	1	48.0	Triangle	1.0	Correct Response!	No money at stake!	n/a	282.812	2.0	284.812	2.0	228.9835376554015	287.0889835376554	1.6877699274198728
n/a	n/a	sub-15	ses-1	1	49.0	LgPun	1.0	Correct Response!	You keep $5!	n/a	288.822	2.0	290.822	2.0	228.9835376554015	293.0989835376554	1.6877699274198728
