onset	duration	BIDS_Subject	BIDS_Session	Run	SubTrial	Condition	Stimulus.ACC	ResponseCheck	Result	stimrt	Cue.OnsetTime	Cue.Duration	Fix.OnsetTime	Fix.Duration	Probe.Duration	Feedback.OnsetTime	Feedback.Duration
n/a	n/a	sub-83	ses-1	1	1.0	SmallReward	0.0	No Response Detected	You did not earn $0.20!	n/a	0.03	2.0	2.03	2.0	240.0	4.318	1.71
n/a	n/a	sub-83	ses-1	1	2.0	LgReward	1.0	Correct Response!	You earn $5!	n/a	6.044	2.0	8.044	2.0	240.0	10.332	1.71
n/a	n/a	sub-83	ses-1	1	3.0	SmallPun	1.0	Correct Response!	You keep $0.20!	n/a	12.043	2.0	14.043	2.0	240.0	16.331	1.71
n/a	n/a	sub-83	ses-1	1	4.0	LgPun	1.0	Correct Response!	You keep $5!	n/a	18.057	2.0	20.057	2.0	240.0	22.345	1.71
n/a	n/a	sub-83	ses-1	1	5.0	Triangle	1.0	Correct Response!	No money at stake!	n/a	24.071	2.0	26.071	2.0	240.0	28.359	1.71
n/a	n/a	sub-83	ses-1	1	6.0	LgPun	1.0	Correct Response!	You keep $5!	n/a	30.07	2.0	32.07	2.0	240.0	34.358	1.71
n/a	n/a	sub-83	ses-1	1	7.0	SmallReward	1.0	Correct Response!	You earn $0.20!	n/a	36.084	2.0	38.084	2.0	240.0	40.372	1.71
n/a	n/a	sub-83	ses-1	1	8.0	SmallPun	1.0	Correct Response!	You keep $0.20!	n/a	42.083	2.0	44.083	2.0	240.0	46.371	1.71
n/a	n/a	sub-83	ses-1	1	9.0	LgPun	0.0	No Response Detected	You lose $5!	n/a	48.096	2.0	50.096	2.0	240.0	52.384	1.71
n/a	n/a	sub-83	ses-1	1	10.0	Triangle	1.0	Correct Response!	No money at stake!	n/a	54.095	2.0	56.095	2.0	240.0	58.383	1.71
n/a	n/a	sub-83	ses-1	1	11.0	LgReward	1.0	Correct Response!	You earn $5!	n/a	60.109	2.0	62.109	2.0	240.0	64.397	1.71
n/a	n/a	sub-83	ses-1	1	12.0	SmallPun	1.0	Correct Response!	You keep $0.20!	n/a	66.108	2.0	68.108	2.0	240.0	70.396	1.71
n/a	n/a	sub-83	ses-1	1	13.0	SmallReward	1.0	Correct Response!	You earn $0.20!	n/a	72.121	2.0	74.121	2.0	240.0	76.409	1.71
n/a	n/a	sub-83	ses-1	1	14.0	Triangle	1.0	Correct Response!	No money at stake!	n/a	78.12	2.0	80.12	2.0	240.0	82.408	1.71
n/a	n/a	sub-83	ses-1	1	15.0	LgReward	1.0	Correct Response!	You earn $5!	n/a	84.134	2.0	86.134	2.0	240.0	88.422	1.71
n/a	n/a	sub-83	ses-1	1	16.0	LgPun	1.0	Correct Response!	You keep $5!	n/a	90.133	2.0	92.133	2.0	240.0	94.421	1.71
n/a	n/a	sub-83	ses-1	1	17.0	SmallPun	1.0	Correct Response!	You keep $0.20!	n/a	96.147	2.0	98.147	2.0	240.0	100.435	1.71
n/a	n/a	sub-83	ses-1	1	18.0	SmallReward	1.0	Correct Response!	You earn $0.20!	n/a	102.161	2.0	104.161	2.0	240.0	106.449	1.71
n/a	n/a	sub-83	ses-1	1	19.0	LgReward	0.0	No Response Detected	You did not earn $5!	n/a	108.16	2.0	110.16	2.0	240.0	112.448	1.71
n/a	n/a	sub-83	ses-1	1	20.0	SmallReward	0.0	No Response Detected	You did not earn $0.20!	n/a	114.174	2.0	116.174	2.0	240.0	118.462	1.71
n/a	n/a	sub-83	ses-1	1	21.0	SmallPun	0.0	No Response Detected	You lose $0.20!	n/a	120.188	2.0	122.188	2.0	240.0	124.476	1.71
n/a	n/a	sub-83	ses-1	1	22.0	LgPun	1.0	Correct Response!	You keep $5!	n/a	126.187	2.0	128.187	2.0	240.0	130.475	1.71
n/a	n/a	sub-83	ses-1	1	23.0	Triangle	1.0	Correct Response!	No money at stake!	n/a	132.201	2.0	134.201	2.0	240.0	136.489	1.71
n/a	n/a	sub-83	ses-1	1	24.0	LgPun	1.0	Correct Response!	You keep $5!	n/a	138.215	2.0	140.215	2.0	240.0	142.503	1.71
n/a	n/a	sub-83	ses-1	1	25.0	SmallReward	1.0	Correct Response!	You earn $0.20!	n/a	144.214	2.0	146.214	2.0	240.0	148.502	1.71
n/a	n/a	sub-83	ses-1	1	26.0	Triangle	0.0	No Response Detected	No money at stake!	n/a	150.228	2.0	152.228	2.0	240.0	154.516	1.71
n/a	n/a	sub-83	ses-1	1	27.0	LgReward	1.0	Correct Response!	You earn $5!	n/a	156.242	2.0	158.242	2.0	240.0	160.53	1.71
n/a	n/a	sub-83	ses-1	1	28.0	LgPun	1.0	Correct Response!	You keep $5!	n/a	162.241	2.0	164.241	2.0	240.0	166.529	1.71
n/a	n/a	sub-83	ses-1	1	29.0	Triangle	1.0	Correct Response!	No money at stake!	n/a	168.255	2.0	170.255	2.0	240.0	172.543	1.71
n/a	n/a	sub-83	ses-1	1	30.0	LgReward	1.0	Correct Response!	You earn $5!	n/a	174.254	2.0	176.254	2.0	240.0	178.542	1.71
n/a	n/a	sub-83	ses-1	1	31.0	SmallReward	1.0	Correct Response!	You earn $0.20!	n/a	180.267	2.0	182.267	2.0	240.0	184.555	1.71
n/a	n/a	sub-83	ses-1	1	32.0	SmallPun	1.0	Correct Response!	You keep $0.20!	n/a	186.266	2.0	188.266	2.0	240.0	190.554	1.71
n/a	n/a	sub-83	ses-1	1	33.0	LgPun	1.0	Correct Response!	You keep $5!	n/a	192.28	2.0	194.28	2.0	240.0	196.568	1.71
n/a	n/a	sub-83	ses-1	1	34.0	Triangle	0.0	No Response Detected	No money at stake!	n/a	198.279	2.0	200.279	2.0	240.0	202.567	1.71
n/a	n/a	sub-83	ses-1	1	35.0	SmallReward	1.0	Correct Response!	You earn $0.20!	n/a	204.292	2.0	206.292	2.0	240.0	208.58	1.71
n/a	n/a	sub-83	ses-1	1	36.0	LgReward	0.0	No Response Detected	You did not earn $5!	n/a	210.291	2.0	212.291	2.0	240.0	214.579	1.71
n/a	n/a	sub-83	ses-1	1	37.0	SmallPun	1.0	Correct Response!	You keep $0.20!	n/a	216.305	2.0	218.305	2.0	240.0	220.593	1.71
n/a	n/a	sub-83	ses-1	1	38.0	Triangle	1.0	Correct Response!	No money at stake!	n/a	222.304	2.0	224.304	2.0	240.0	226.592	1.71
n/a	n/a	sub-83	ses-1	1	39.0	SmallReward	1.0	Correct Response!	You earn $0.20!	n/a	228.318	2.0	230.318	2.0	240.0	232.606	1.71
n/a	n/a	sub-83	ses-1	1	40.0	LgReward	1.0	Correct Response!	You earn $5!	n/a	234.332	2.0	236.332	2.0	240.0	238.62	1.71
n/a	n/a	sub-83	ses-1	1	41.0	LgPun	1.0	Correct Response!	You keep $5!	n/a	240.331	2.0	242.331	2.0	240.0	244.619	1.71
n/a	n/a	sub-83	ses-1	1	42.0	SmallPun	1.0	Correct Response!	You keep $0.20!	n/a	246.345	2.0	248.345	2.0	240.0	250.633	1.71
n/a	n/a	sub-83	ses-1	1	43.0	LgReward	1.0	Correct Response!	You earn $5!	n/a	252.359	2.0	254.359	2.0	240.0	256.647	1.71
n/a	n/a	sub-83	ses-1	1	44.0	Triangle	1.0	Correct Response!	No money at stake!	n/a	258.358	2.0	260.358	2.0	240.0	262.646	1.71
n/a	n/a	sub-83	ses-1	1	45.0	SmallReward	0.0	No Response Detected	You did not earn $0.20!	n/a	264.372	2.0	266.372	2.0	240.0	268.66	1.71
n/a	n/a	sub-83	ses-1	1	46.0	SmallPun	1.0	Correct Response!	You keep $0.20!	n/a	270.386	2.0	272.386	2.0	240.0	274.674	1.71
n/a	n/a	sub-83	ses-1	1	47.0	LgReward	1.0	Correct Response!	You earn $5!	n/a	276.385	2.0	278.385	2.0	240.0	280.673	1.71
n/a	n/a	sub-83	ses-1	1	48.0	Triangle	0.0	No Response Detected	No money at stake!	n/a	282.399	2.0	284.399	2.0	240.0	286.687	1.71
n/a	n/a	sub-83	ses-1	1	49.0	LgPun	1.0	Correct Response!	You keep $5!	n/a	288.398	2.0	290.398	2.0	240.0	292.686	1.71
n/a	n/a	sub-83	ses-1	1	50.0	SmallPun	1.0	Correct Response!	You keep $0.20!	n/a	294.411	2.0	296.411	2.0	240.0	298.699	1.71
n/a	n/a	sub-83	ses-1	2	n/a	n/a	n/a	n/a	n/a	n/a	n/a	n/a	n/a	n/a	228.9835376554015	n/a	1.6877699274198728
