onset	duration	BIDS_Subject	BIDS_Session	Run	SubTrial	Condition	Stimulus.ACC	ResponseCheck	Result	stimrt	Cue.OnsetTime	Cue.Duration	Fix.OnsetTime	Fix.Duration	Probe.Duration	Feedback.OnsetTime	Feedback.Duration
n/a	n/a	sub-123	ses-2	1	1.0	SmallReward	1.0	Correct Response!	You earn $0.20!	n/a	0.03	2.0	2.03	2.0	240.0	4.318	1.76
n/a	n/a	sub-123	ses-2	1	2.0	LgReward	0.0	No Response Detected	You did not earn $5!	n/a	6.04	2.0	8.04	2.0	240.0	10.328	1.76
n/a	n/a	sub-123	ses-2	1	3.0	SmallPun	1.0	Correct Response!	You keep $0.20!	n/a	12.216	2.0	14.216	2.0	240.0	16.504	1.76
n/a	n/a	sub-123	ses-2	1	4.0	LgPun	0.0	No Response Detected	You lose $5!	n/a	18.227	2.0	20.227	2.0	240.0	22.515	1.76
n/a	n/a	sub-123	ses-2	1	5.0	Triangle	0.0	No Response Detected	No money at stake!	n/a	24.403	2.0	26.403	2.0	240.0	28.691	1.76
n/a	n/a	sub-123	ses-2	1	6.0	LgPun	1.0	Correct Response!	You keep $5!	n/a	30.413	2.0	32.413	2.0	240.0	34.701	1.76
n/a	n/a	sub-123	ses-2	1	7.0	SmallReward	0.0	No Response Detected	You did not earn $0.20!	n/a	36.423	2.0	38.423	2.0	240.0	40.711	1.76
n/a	n/a	sub-123	ses-2	1	8.0	SmallPun	1.0	Correct Response!	You keep $0.20!	n/a	42.434	2.0	44.434	2.0	240.0	46.722	1.76
n/a	n/a	sub-123	ses-2	1	9.0	LgPun	1.0	Correct Response!	You keep $5!	n/a	48.444	2.0	50.444	2.0	240.0	52.732	1.76
n/a	n/a	sub-123	ses-2	1	10.0	Triangle	0.0	No Response Detected	No money at stake!	n/a	54.454	2.0	56.454	2.0	240.0	58.742	1.76
n/a	n/a	sub-123	ses-2	1	11.0	LgReward	1.0	No Response Detected	You earn $5!	n/a	60.464	2.0	62.464	2.0	240.0	64.752	1.76
n/a	n/a	sub-123	ses-2	1	12.0	SmallPun	1.0	Correct Response!	You keep $0.20!	n/a	66.474	2.0	68.474	2.0	240.0	70.762	1.76
n/a	n/a	sub-123	ses-2	1	13.0	SmallReward	0.0	No Response Detected	You did not earn $0.20!	n/a	72.484	2.0	74.484	2.0	240.0	76.772	1.76
n/a	n/a	sub-123	ses-2	1	14.0	Triangle	1.0	Correct Response!	No money at stake!	n/a	78.494	2.0	80.494	2.0	240.0	82.782	1.76
n/a	n/a	sub-123	ses-2	1	15.0	LgReward	1.0	Correct Response!	You earn $5!	n/a	84.504	2.0	86.504	2.0	240.0	88.792	1.76
n/a	n/a	sub-123	ses-2	1	16.0	LgPun	0.0	No Response Detected	You lose $5!	n/a	90.515	2.0	92.515	2.0	240.0	94.803	1.76
n/a	n/a	sub-123	ses-2	1	17.0	SmallPun	1.0	Correct Response!	You keep $0.20!	n/a	96.525	2.0	98.525	2.0	240.0	100.813	1.76
n/a	n/a	sub-123	ses-2	1	18.0	SmallReward	0.0	No Response Detected	You did not earn $0.20!	n/a	102.535	2.0	104.535	2.0	240.0	106.823	1.76
n/a	n/a	sub-123	ses-2	1	19.0	LgReward	1.0	No Response Detected	You did not earn $5!	n/a	108.545	2.0	110.545	2.0	240.0	112.833	1.76
n/a	n/a	sub-123	ses-2	1	20.0	SmallReward	0.0	No Response Detected	You did not earn $0.20!	n/a	114.555	2.0	116.555	2.0	240.0	118.843	1.76
n/a	n/a	sub-123	ses-2	1	21.0	SmallPun	1.0	Correct Response!	You keep $0.20!	n/a	120.565	2.0	122.565	2.0	240.0	124.853	1.76
n/a	n/a	sub-123	ses-2	1	22.0	LgPun	0.0	No Response Detected	You lose $5!	n/a	126.575	2.0	128.575	2.0	240.0	130.863	1.76
n/a	n/a	sub-123	ses-2	1	23.0	Triangle	1.0	No Response Detected	No money at stake!	n/a	132.586	2.0	134.586	2.0	240.0	136.874	1.76
n/a	n/a	sub-123	ses-2	1	24.0	LgPun	1.0	Correct Response!	You keep $5!	n/a	138.596	2.0	140.596	2.0	240.0	142.884	1.76
n/a	n/a	sub-123	ses-2	1	25.0	SmallReward	1.0	No Response Detected	You did not earn $0.20!	n/a	144.606	2.0	146.606	2.0	240.0	148.894	1.76
n/a	n/a	sub-123	ses-2	1	26.0	Triangle	1.0	Correct Response!	No money at stake!	n/a	150.616	2.0	152.616	2.0	240.0	154.904	1.76
n/a	n/a	sub-123	ses-2	1	27.0	LgReward	1.0	No Response Detected	You did not earn $5!	n/a	156.626	2.0	158.626	2.0	240.0	160.914	1.76
n/a	n/a	sub-123	ses-2	1	28.0	LgPun	0.0	No Response Detected	You lose $5!	n/a	162.636	2.0	164.636	2.0	240.0	166.924	1.76
n/a	n/a	sub-123	ses-2	1	29.0	Triangle	0.0	No Response Detected	No money at stake!	n/a	168.646	2.0	170.646	2.0	240.0	172.934	1.76
n/a	n/a	sub-123	ses-2	1	30.0	LgReward	0.0	No Response Detected	You did not earn $5!	n/a	174.656	2.0	176.656	2.0	240.0	178.944	1.76
n/a	n/a	sub-123	ses-2	1	31.0	SmallReward	1.0	No Response Detected	You did not earn $0.20!	n/a	180.667	2.0	182.667	2.0	240.0	184.955	1.76
n/a	n/a	sub-123	ses-2	1	32.0	SmallPun	1.0	Correct Response!	You keep $0.20!	n/a	186.677	2.0	188.677	2.0	240.0	190.965	1.76
n/a	n/a	sub-123	ses-2	1	33.0	LgPun	0.0	No Response Detected	You lose $5!	n/a	192.687	2.0	194.687	2.0	240.0	196.975	1.76
n/a	n/a	sub-123	ses-2	1	34.0	Triangle	0.0	No Response Detected	No money at stake!	n/a	198.697	2.0	200.697	2.0	240.0	202.985	1.76
n/a	n/a	sub-123	ses-2	1	35.0	SmallReward	1.0	Correct Response!	You earn $0.20!	n/a	204.707	2.0	206.707	2.0	240.0	208.995	1.76
n/a	n/a	sub-123	ses-2	1	36.0	LgReward	0.0	No Response Detected	You did not earn $5!	n/a	210.717	2.0	212.717	2.0	240.0	215.005	1.76
n/a	n/a	sub-123	ses-2	1	37.0	SmallPun	0.0	No Response Detected	You lose $0.20!	n/a	216.727	2.0	218.727	2.0	240.0	221.015	1.76
n/a	n/a	sub-123	ses-2	1	38.0	Triangle	1.0	No Response Detected	No money at stake!	n/a	222.737	2.0	224.737	2.0	240.0	227.025	1.76
n/a	n/a	sub-123	ses-2	1	39.0	SmallReward	1.0	Correct Response!	You earn $0.20!	n/a	228.748	2.0	230.748	2.0	240.0	233.036	1.76
n/a	n/a	sub-123	ses-2	1	40.0	LgReward	1.0	No Response Detected	You did not earn $5!	n/a	234.758	2.0	236.758	2.0	240.0	239.046	1.76
n/a	n/a	sub-123	ses-2	1	41.0	LgPun	0.0	No Response Detected	You lose $5!	n/a	240.768	2.0	242.768	2.0	240.0	245.056	1.76
n/a	n/a	sub-123	ses-2	1	42.0	SmallPun	1.0	Correct Response!	You keep $0.20!	n/a	246.778	2.0	248.778	2.0	240.0	251.066	1.76
n/a	n/a	sub-123	ses-2	1	43.0	LgReward	1.0	No Response Detected	You did not earn $5!	n/a	252.788	2.0	254.788	2.0	240.0	257.076	1.76
n/a	n/a	sub-123	ses-2	1	44.0	Triangle	0.0	No Response Detected	No money at stake!	n/a	258.798	2.0	260.798	2.0	240.0	263.086	1.76
n/a	n/a	sub-123	ses-2	1	45.0	SmallReward	1.0	Correct Response!	You earn $0.20!	n/a	264.808	2.0	266.808	2.0	240.0	269.096	1.76
n/a	n/a	sub-123	ses-2	1	46.0	SmallPun	1.0	Correct Response!	You keep $0.20!	n/a	270.818	2.0	272.818	2.0	240.0	275.106	1.76
n/a	n/a	sub-123	ses-2	1	47.0	LgReward	1.0	Correct Response!	You earn $5!	n/a	276.829	2.0	278.829	2.0	240.0	281.117	1.76
n/a	n/a	sub-123	ses-2	1	48.0	Triangle	1.0	Correct Response!	No money at stake!	n/a	282.839	2.0	284.839	2.0	240.0	287.127	1.76
n/a	n/a	sub-123	ses-2	1	49.0	LgPun	1.0	Correct Response!	You keep $5!	n/a	288.849	2.0	290.849	2.0	240.0	293.137	1.76
