onset	duration	BIDS_Subject	BIDS_Session	Run	SubTrial	Condition	Stimulus.ACC	ResponseCheck	Result	stimrt	Cue.OnsetTime	Cue.Duration	Fix.OnsetTime	Fix.Duration	Probe.Duration	Feedback.OnsetTime	Feedback.Duration
n/a	n/a	sub-16	ses-2	1	1.0	SmallReward	1.0	Correct Response!	You earn $0.20!	n/a	0.03	2.0	2.03	2.0	250.0	4.328	1.7
n/a	n/a	sub-16	ses-2	1	2.0	LgReward	1.0	Correct Response!	You earn $5!	n/a	6.029	2.0	8.029	2.0	250.0	10.327	1.7
n/a	n/a	sub-16	ses-2	1	3.0	SmallPun	1.0	Correct Response!	You keep $0.20!	n/a	12.043	2.0	14.043	2.0	250.0	16.341	1.7
n/a	n/a	sub-16	ses-2	1	4.0	LgPun	1.0	Correct Response!	You keep $5!	n/a	18.057	2.0	20.057	2.0	250.0	22.355	1.7
n/a	n/a	sub-16	ses-2	1	5.0	Triangle	1.0	Correct Response!	No money at stake!	n/a	24.056	2.0	26.056	2.0	250.0	28.354	1.7
n/a	n/a	sub-16	ses-2	1	6.0	LgPun	0.0	No Response Detected	You lose $5!	n/a	30.07	2.0	32.07	2.0	250.0	34.368	1.7
n/a	n/a	sub-16	ses-2	1	7.0	SmallReward	1.0	Correct Response!	You earn $0.20!	n/a	36.084	2.0	38.084	2.0	250.0	40.382	1.7
n/a	n/a	sub-16	ses-2	1	8.0	SmallPun	0.0	No Response Detected	You lose $0.20!	n/a	42.083	2.0	44.083	2.0	250.0	46.381	1.7
n/a	n/a	sub-16	ses-2	1	9.0	LgPun	0.0	No Response Detected	You lose $5!	n/a	48.097	2.0	50.097	2.0	250.0	52.395	1.7
n/a	n/a	sub-16	ses-2	1	10.0	Triangle	0.0	No Response Detected	No money at stake!	n/a	54.111	2.0	56.111	2.0	250.0	58.409	1.7
n/a	n/a	sub-16	ses-2	1	11.0	LgReward	0.0	No Response Detected	You did not earn $5!	n/a	60.11	2.0	62.11	2.0	250.0	64.408	1.7
n/a	n/a	sub-16	ses-2	1	12.0	SmallPun	1.0	Correct Response!	You keep $0.20!	n/a	66.124	2.0	68.124	2.0	250.0	70.422	1.7
n/a	n/a	sub-16	ses-2	1	13.0	SmallReward	0.0	No Response Detected	You did not earn $0.20!	n/a	72.138	2.0	74.138	2.0	250.0	76.436	1.7
n/a	n/a	sub-16	ses-2	1	14.0	Triangle	0.0	No Response Detected	No money at stake!	n/a	78.137	2.0	80.137	2.0	250.0	82.435	1.7
n/a	n/a	sub-16	ses-2	1	15.0	LgReward	1.0	Correct Response!	You earn $5!	n/a	84.151	2.0	86.151	2.0	250.0	88.449	1.7
n/a	n/a	sub-16	ses-2	1	16.0	LgPun	1.0	Correct Response!	You keep $5!	n/a	90.165	2.0	92.165	2.0	250.0	94.463	1.7
n/a	n/a	sub-16	ses-2	1	17.0	SmallPun	0.0	No Response Detected	You lose $0.20!	n/a	96.164	2.0	98.164	2.0	250.0	100.462	1.7
n/a	n/a	sub-16	ses-2	1	18.0	SmallReward	1.0	Correct Response!	You earn $0.20!	n/a	102.178	2.0	104.178	2.0	250.0	106.476	1.7
n/a	n/a	sub-16	ses-2	1	19.0	LgReward	1.0	Correct Response!	You earn $5!	n/a	108.192	2.0	110.192	2.0	250.0	112.49	1.7
n/a	n/a	sub-16	ses-2	1	20.0	SmallReward	1.0	Correct Response!	You earn $0.20!	n/a	114.191	2.0	116.191	2.0	250.0	118.489	1.7
n/a	n/a	sub-16	ses-2	1	21.0	SmallPun	1.0	Correct Response!	You keep $0.20!	n/a	120.205	2.0	122.205	2.0	250.0	124.503	1.7
n/a	n/a	sub-16	ses-2	1	22.0	LgPun	1.0	Correct Response!	You keep $5!	n/a	126.204	2.0	128.204	2.0	250.0	130.502	1.7
n/a	n/a	sub-16	ses-2	1	23.0	Triangle	0.0	No Response Detected	No money at stake!	n/a	132.217	2.0	134.217	2.0	250.0	136.515	1.7
n/a	n/a	sub-16	ses-2	1	24.0	LgPun	1.0	Correct Response!	You keep $5!	n/a	138.216	2.0	140.216	2.0	250.0	142.514	1.7
n/a	n/a	sub-16	ses-2	1	25.0	SmallReward	1.0	Correct Response!	You earn $0.20!	n/a	144.23	2.0	146.23	2.0	250.0	148.528	1.7
n/a	n/a	sub-16	ses-2	1	26.0	Triangle	0.0	No Response Detected	No money at stake!	n/a	150.244	2.0	152.244	2.0	250.0	154.542	1.7
n/a	n/a	sub-16	ses-2	1	27.0	LgReward	1.0	Correct Response!	You earn $5!	n/a	156.243	2.0	158.243	2.0	250.0	160.541	1.7
n/a	n/a	sub-16	ses-2	1	28.0	LgPun	1.0	Correct Response!	You keep $5!	n/a	162.257	2.0	164.257	2.0	250.0	166.555	1.7
n/a	n/a	sub-16	ses-2	1	29.0	Triangle	0.0	No Response Detected	No money at stake!	n/a	168.256	2.0	170.256	2.0	250.0	172.554	1.7
n/a	n/a	sub-16	ses-2	1	30.0	LgReward	1.0	Correct Response!	You earn $5!	n/a	174.269	2.0	176.269	2.0	250.0	178.567	1.7
n/a	n/a	sub-16	ses-2	1	31.0	SmallReward	0.0	No Response Detected	You did not earn $0.20!	n/a	180.268	2.0	182.268	2.0	250.0	184.566	1.7
n/a	n/a	sub-16	ses-2	1	32.0	SmallPun	1.0	Correct Response!	You keep $0.20!	n/a	186.282	2.0	188.282	2.0	250.0	190.58	1.7
n/a	n/a	sub-16	ses-2	1	33.0	LgPun	1.0	Correct Response!	You keep $5!	n/a	192.281	2.0	194.281	2.0	250.0	196.579	1.7
n/a	n/a	sub-16	ses-2	1	34.0	Triangle	0.0	No Response Detected	No money at stake!	n/a	198.294	2.0	200.294	2.0	250.0	202.592	1.7
n/a	n/a	sub-16	ses-2	1	35.0	SmallReward	1.0	Correct Response!	You earn $0.20!	n/a	204.293	2.0	206.293	2.0	250.0	208.591	1.7
n/a	n/a	sub-16	ses-2	1	36.0	LgReward	0.0	No Response Detected	You did not earn $5!	n/a	210.307	2.0	212.307	2.0	250.0	214.605	1.7
n/a	n/a	sub-16	ses-2	1	37.0	SmallPun	0.0	No Response Detected	You lose $0.20!	n/a	216.306	2.0	218.306	2.0	250.0	220.604	1.7
n/a	n/a	sub-16	ses-2	1	38.0	Triangle	1.0	Correct Response!	No money at stake!	n/a	222.319	2.0	224.319	2.0	250.0	226.617	1.7
n/a	n/a	sub-16	ses-2	1	39.0	SmallReward	1.0	Correct Response!	You earn $0.20!	n/a	228.318	2.0	230.318	2.0	250.0	232.616	1.7
n/a	n/a	sub-16	ses-2	1	40.0	LgReward	1.0	Correct Response!	You earn $5!	n/a	234.332	2.0	236.332	2.0	250.0	238.63	1.7
n/a	n/a	sub-16	ses-2	1	41.0	LgPun	1.0	Correct Response!	You keep $5!	n/a	240.331	2.0	242.331	2.0	250.0	244.629	1.7
n/a	n/a	sub-16	ses-2	1	42.0	SmallPun	0.0	No Response Detected	You lose $0.20!	n/a	246.344	2.0	248.344	2.0	250.0	250.642	1.7
n/a	n/a	sub-16	ses-2	1	43.0	LgReward	1.0	Correct Response!	You earn $5!	n/a	252.343	2.0	254.343	2.0	250.0	256.641	1.7
n/a	n/a	sub-16	ses-2	1	44.0	Triangle	0.0	No Response Detected	No money at stake!	n/a	258.357	2.0	260.357	2.0	250.0	262.655	1.7
n/a	n/a	sub-16	ses-2	1	45.0	SmallReward	1.0	Correct Response!	You earn $0.20!	n/a	264.371	2.0	266.371	2.0	250.0	268.669	1.7
n/a	n/a	sub-16	ses-2	1	46.0	SmallPun	0.0	No Response Detected	You lose $0.20!	n/a	270.37	2.0	272.37	2.0	250.0	274.668	1.7
n/a	n/a	sub-16	ses-2	1	47.0	LgReward	1.0	Correct Response!	You earn $5!	n/a	276.384	2.0	278.384	2.0	250.0	280.682	1.7
n/a	n/a	sub-16	ses-2	1	48.0	Triangle	0.0	No Response Detected	No money at stake!	n/a	282.383	2.0	284.383	2.0	250.0	286.681	1.7
n/a	n/a	sub-16	ses-2	1	49.0	LgPun	1.0	Correct Response!	You keep $5!	n/a	288.396	2.0	290.396	2.0	250.0	292.694	1.7
n/a	n/a	sub-16	ses-2	1	50.0	SmallPun	0.0	No Response Detected	You lose $0.20!	n/a	294.395	2.0	296.395	2.0	250.0	298.693	1.7
